A-OUT 频率/Hz,基频幅度/V
5000,0.12
4900,0.12
4800,0.12
4700,0.12
4600,0.12
4500,0.16
4400,0.2
4300,0.28
4200,0.36
4100,0.44
4000,0.56
3900,0.72
3800,0.92
3700,1.12
3600,1.36
3500,1.68
3400,1.92
3300,2.20
3200,2.52
3100,2.84
3000,3.12
2900,3.44
2800,3.68
2700,3.92
2600,4.12
2500,4.32
2400,4.48
2300,4.68
2200,4.72
2100,4.80
2000,4.84
1900,4.96
1800,4.96
1700,4.96
1600,5.0
1500,5.0
1400,5.0
1300,5.0
1200,5.0
1100,5.0
1000,5.0
900,5.0
800,5.0
700,5.0
600,5.0
500,5.0
400,5.0
300,5.0
200,5.0
100,5.0
